Wavelength    Value   
587.00    844       
587.01    900       
587.01    874       
587.02    768       
587.02    786       
587.03    780       
587.03    848       
587.04    886       
587.04    842       
587.04    886       
587.05    915       
587.06    816       
587.06    769       
587.07    898       
587.07    810       
587.08    799       
587.08    806       
587.09    811       
587.09    826       
587.09    818       
587.10    787       
587.11    919       
587.11    852       
587.12    835       
587.12    843       
587.13    881       
587.13    797       
587.14    902       
587.14    856       
587.14    880       
587.15    844       
587.16    833       
587.16    792       
587.16    858       
587.17    885       
587.18    849       
587.18    794       
587.19    830       
587.19    818       
587.20    875       
587.20    779       
587.21    832       
587.21    859       
587.21    773       
587.22    890       
587.23    831       
587.23    820       
587.24    812       
587.24    768       
587.25    783       
587.25    855       
587.26    886       
587.26    807       
587.26    829       
587.27    806       
587.28    755       
587.28    831       
587.29    886       
587.29    779       
587.30    809       
587.30    839       
587.31    852       
587.31    830       
587.32    884       
587.32    905       
587.33    847       
587.33    830       
587.33    863       
587.34    863       
587.35    850       
587.35    837       
587.36    848       
587.36    798       
587.37    834       
587.37    858       
587.38    838       
587.38    823       
587.38    921       
587.39    896       
587.40    963       
587.40    824       
587.41    832       
587.41    786       
587.42    883       
587.42    861       
587.43    859       
587.43    796       
587.43    801       
587.44    832       
587.45    818       
587.45    836       
587.45    825       
587.46    836       
587.47    768       
587.47    794       
587.48    779       
587.48    837       
587.49    786       
587.49    792       
587.50    881       
587.50    828       
587.50    795       
587.51    799       
587.52    789       
587.52    817       
587.53    754       
587.53    833       
587.54    845       
587.54    840       
587.55    752       
587.55    862       
587.55    845       
587.56    887       
587.57    836       
587.57    861       
587.58    812       
587.58    761       
587.59    845       
587.59    904       
587.60    933       
587.60    804       
587.61    806       
587.61    807       
587.62    829       
587.62    838       
587.62    822       
587.63    825       
587.64    767       
587.64    809       
587.65    812       
587.65    829       
587.66    805       
587.66    840       
587.67    779       
587.67    846       
587.67    885       
587.68    856       
587.69    780       
587.69    778       
587.70    810       
587.70    834       
587.71    782       
587.71    788       
587.72    794       
587.72    771       
587.72    806       
587.73    797       
587.74    778       
587.74    785       
587.74    784       
587.75    777       
587.76    757       
587.76    785       
587.77    877       
587.77    779       
587.78    842       
587.78    802       
587.79    797       
587.79    857       
587.79    790       
587.80    832       
587.81    801       
587.81    835       
587.82    849       
587.82    784       
587.83    844       
587.83    773       
587.84    767       
587.84    797       
587.84    773       
587.85    845       
587.86    831       
587.86    802       
587.87    836       
587.87    938       
587.88    854       
587.88    786       
587.89    778       
587.89    804       
587.90    803       
587.90    814       
587.91    801       
587.91    845       
587.91    852       
587.92    784       
587.93    853       
587.93    819       
587.94    778       
587.94    838       
587.95    765       
587.95    888       
587.96    839       
587.96    896       
587.96    817       
587.97    769       
587.98    822       
587.98    800       
587.99    837       
587.99    780       
588.00    807       
588.00    827       
588.01    890       
588.01    776       
588.02    849       
588.02    808       
588.03    815       
588.03    783       
588.03    800       
588.04    829       
588.05    802       
588.05    911       
588.06    762       
588.06    809       
588.07    819       
588.07    859       
588.08    818       
588.08    853       
588.08    851       
588.09    784       
588.10    780       
588.10    791       
588.11    781       
588.11    812       
588.12    837       
588.12    830       
588.13    787       
588.13    856       
588.13    771       
588.14    791       
588.15    862       
588.15    841       
588.15    855       
588.16    840       
588.17    878       
588.17    841       
588.18    837       
588.18    818       
588.19    886       
588.19    840       
588.20    858       
588.20    799       
588.20    830       
588.21    904       
588.22    808       
588.22    808       
588.23    821       
588.23    919       
588.24    878       
588.24    843       
588.25    843       
588.25    899       
588.25    840       
588.26    863       
588.27    831       
588.27    834       
588.28    843       
588.28    849       
588.29    847       
588.29    896       
588.30    872       
588.30    845       
588.31    815       
588.31    835       
588.32    834       
588.32    830       
588.32    781       
588.33    816       
588.34    845       
588.34    829       
588.35    846       
588.35    812       
588.36    833       
588.36    790       
588.37    914       
588.37    823       
588.37    831       
588.38    837       
588.39    784       
588.39    919       
588.40    884       
588.40    894       
588.41    869       
588.41    822       
588.42    784       
588.42    910       
588.42    856       
588.43    930       
588.44    858       
588.44    784       
588.44    873       
588.45    797       
588.46    762       
588.46    799       
588.47    859       
588.47    800       
588.48    871       
588.48    889       
588.49    782       
588.49    839       
588.49    816       
588.50    838       
588.51    805       
588.51    806       
588.52    779       
588.52    776       
588.53    806       
588.53    814       
588.54    774       
588.54    819       
588.54    789       
588.55    864       
588.56    837       
588.56    784       
588.57    825       
588.57    834       
588.58    832       
588.58    968       
588.59    802       
588.59    780       
588.60    773       
588.60    858       
588.61    831       
588.61    826       
588.61    813       
588.62    831       
588.63    770       
588.63    813       
588.64    763       
588.64    814       
588.65    799       
588.65    808       
588.66    769       
588.66    827       
588.66    853       
588.67    832       
588.68    773       
588.68    845       
588.69    831       
588.69    850       
588.70    805       
588.70    802       
588.71    803       
588.71    792       
588.72    811       
588.72    778       
588.73    792       
588.73    900       
588.73    832       
588.74    756       
588.75    767       
588.75    779       
588.76    804       
588.76    812       
588.77    803       
588.77    780       
588.78    772       
588.78    787       
588.78    778       
588.79    759       
588.80    792       
588.80    793       
588.81    851       
588.81    792       
588.82    784       
588.82    793       
588.83    813       
588.83    892       
588.83    797       
588.84    793       
588.85    832       
588.85    783       
588.85    818       
588.86    783       
588.87    821       
588.87    795       
588.88    797       
588.88    809       
588.89    793       
588.89    863       
588.90    954       
588.90    784       
588.90    809       
588.91    784       
588.92    805       
588.92    814       
588.93    831       
588.93    825       
588.94    806       
588.94    803       
588.95    821       
588.95    835       
588.95    813       
588.96    841       
588.97    887       
588.97    927       
588.98    911       
588.98    914       
588.99    1094      
588.99    1140      
589.00    1321      
589.00    1352      
589.01    1489      
589.01    1709      
589.02    1882      
589.02    2016      
589.02    2404      
589.03    2742      
589.04    2947      
589.04    3181      
589.05    3729      
589.05    4434      
589.06    4543      
589.06    4568      
589.07    4504      
589.07    4550      
589.07    4531      
589.08    4595      
589.09    4527      
589.09    4516      
589.10    4530      
589.10    4490      
589.11    4473      
589.11    4563      
589.12    4484      
589.12    4573      
589.13    4680      
589.13    4551      
589.14    4582      
589.14    4654      
589.14    4501      
589.15    4641      
589.16    4578      
589.16    4585      
589.17    4616      
589.17    4585      
589.18    4551      
589.18    4587      
589.19    4615      
589.19    4556      
589.19    4569      
589.20    4541      
589.21    4658      
589.21    4569      
589.22    4636      
589.22    4788      
589.23    4669      
589.23    4579      
589.24    4615      
589.24    4605      
589.24    4511      
589.25    4436      
589.26    4394      
589.26    3994      
589.26    3225      
589.27    2988      
589.28    2788      
589.28    2711      
589.29    2534      
589.29    2448      
589.30    2207      
589.30    2048      
589.31    1959      
589.31    1933      
589.31    1749      
589.32    1725      
589.33    1563      
589.33    1566      
589.34    1495      
589.34    1498      
589.35    1374      
589.35    1312      
589.36    1323      
589.36    1252      
589.36    1280      
589.37    1121      
589.38    1111      
589.38    1064      
589.38    1032      
589.39    1007      
589.40    979       
589.40    921       
589.41    897       
589.41    911       
589.42    937       
589.42    940       
589.43    862       
589.43    902       
589.43    893       
589.44    844       
589.45    918       
589.45    1072      
589.46    829       
589.46    903       
589.47    821       
589.47    904       
589.48    821       
589.48    876       
589.48    921       
589.49    831       
589.50    998       
589.50    858       
589.51    941       
589.51    826       
589.52    849       
589.52    839       
589.53    859       
589.53    826       
589.54    827       
589.54    873       
589.55    860       
589.55    864       
589.55    850       
589.56    926       
589.57    882       
589.57    913       
589.58    979       
589.58    1102      
589.59    1146      
589.59    1203      
589.60    1252      
589.60    1330      
589.60    1510      
589.61    1669      
589.62    1761      
589.62    1914      
589.63    2042      
589.63    2221      
589.64    2551      
589.64    2806      
589.65    3101      
589.65    3220      
589.66    4329      
589.66    4418      
589.67    4439      
589.67    4387      
589.67    4473      
589.68    4451      
589.69    4439      
589.69    4388      
589.70    4427      
589.70    4517      
589.71    4426      
589.71    4440      
589.72    4513      
589.72    4507      
589.72    4539      
589.73    4490      
589.74    4574      
589.74    4494      
589.75    4552      
589.75    4453      
589.76    4536      
589.76    4575      
589.77    4436      
589.77    4536      
589.77    4450      
589.78    4376      
589.79    4443      
589.79    4458      
589.79    4382      
589.80    4402      
589.81    4401      
589.81    4405      
589.82    4404      
589.82    4375      
589.83    4316      
589.83    4227      
589.84    4100      
589.84    3905      
589.84    3147      
589.85    2892      
589.86    2785      
589.86    2685      
589.87    2550      
589.87    2413      
589.88    2315      
589.88    2364      
589.89    2187      
589.89    2067      
589.89    2030      
589.90    1905      
589.91    1846      
589.91    1689      
589.91    1612      
589.92    1505      
589.93    1464      
589.93    1484      
589.94    1414      
589.94    1349      
589.95    1240      
589.95    1221      
589.96    1198      
589.96    1143      
589.96    1148      
589.97    1041      
589.98    999       
589.98    1084      
589.99    1090      
589.99    966       
590.00    996       
590.00    947       
590.01    893       
590.01    906       
590.01    922       
590.02    898       
590.03    892       
590.03    874       
590.04    840       
590.04    849       
590.05    849       
590.05    857       
590.06    857       
590.06    823       
590.07    820       
590.07    906       
590.08    865       
590.08    860       
590.08    854       
590.09    834       
590.10    925       
590.10    783       
590.11    828       
590.11    796       
590.12    866       
590.12    878       
590.13    794       
590.13    834       
590.13    820       
590.14    800       
590.15    853       
590.15    771       
590.16    873       
590.16    855       
590.17    819       
590.17    810       
590.18    804       
590.18    822       
590.19    799       
590.19    867       
590.20    803       
590.20    821       
590.20    841       
590.21    839       
590.22    827       
590.22    823       
590.23    818       
590.23    901       
590.24    778       
590.24    843       
590.25    871       
590.25    833       
590.25    880       
590.26    805       
590.27    812       
590.27    777       
590.28    770       
590.28    928       
590.29    847       
590.29    856       
590.30    826       
590.30    815       
590.31    832       
590.31    807       
590.32    813       
590.32    824       
590.32    832       
590.33    858       
590.34    845       
590.34    881       
590.35    923       
590.35    898       
590.36    810       
590.36    813       
590.37    842       
590.37    824       
590.37    809       
590.38    834       
590.39    845       
590.39    821       
590.40    785       
590.40    811       
590.41    791       
590.41    854       
590.42    785       
590.42    805       
590.42    810       
590.43    805       
590.44    880       
590.44    813       
590.44    848       
590.45    837       
590.46    835       
590.46    820       
590.47    877       
590.47    889       
590.48    797       
590.48    845       
590.49    846       
590.49    845       
590.49    809       
590.50    895       
590.51    787       
590.51    902       
590.52    809       
590.52    975       
590.53    851       
590.53    836       
590.54    801       
590.54    795       
590.54    804       
590.55    848       
590.56    844       
590.56    764       
590.56    837       
590.57    866       
590.58    781       
590.58    867       
590.59    906       
590.59    806       
590.60    765       
590.60    812       
590.61    777       
590.61    824       
590.61    813       
590.62    792       
590.63    786       
590.63    886       
590.64    828       
590.64    901       
590.65    818       
590.65    868       
590.66    819       
590.66    834       
590.66    790       
590.67    826       
590.68    839       
590.68    856       
590.68    809       
590.69    779       
590.70    774       
590.70    804       
590.71    847       
590.71    785       
590.72    808       
590.72    789       
590.73    823       
590.73    839       
590.73    874       
590.74    846       
590.75    784       
590.75    797       
590.76    791       
590.76    790       
590.77    809       
590.77    801       
590.78    773       
590.78    812       
590.78    794       
590.79    852       
590.80    823       
590.80    818       
590.80    825       
590.81    806       
590.82    822       
590.82    855       
590.83    793       
590.83    849       
590.84    866       
590.84    825       
590.85    786       
590.85    802       
590.85    842       
590.86    765       
590.87    756       
590.87    760       
590.88    846       
590.88    818       
590.89    776       
590.89    811       
590.90    786       
590.90    797       
590.90    832       
590.91    782       
590.92    821       
590.92    762       
590.93    782       
590.93    814       
590.94    817       
590.94    805       
590.95    780       
590.95    810       
590.96    756       
590.96    789       
590.97    835       
590.97    768       
590.97    787       
590.98    835       
590.99    799       
590.99    813       
591.00    822       
591.00    791       
